"ID","alpha","block","diff","english","exposure","first_key_rt","first_key_timestamp","form_response","last_key_rt","response","retrieval_t","rv_trial","swahili","time_block_loop","time_block_sequence","time_correct_answer","time_cue","time_fixation_cross","time_fixation_dot","time_incorrect_answer","time_keyboard","time_press_spacebar","time_study_screen","time_test_screen","trial"
"NA","NA","NA","NA","NA","NA","NA","NA","23","NA","23","NA","NA","NA","NA","NA","NA","NA","NA","NA","NA","NA","NA","NA","NA","NA"
"NA","NA","white","NA","legacy","legacy","legacy","0","uniform","0","0","NA","0","NA","NA","NA","NA","0","0","NA","0","0","NA","NA","NA","NA","0","NA","0","NA","NA","NA","NA","NA","NA","Wed Sep 24 12:55:40 2025","The main experiment item","NA","False","NA","NA","Swahili.osexp","C:\Users\elian\Documents\Uni\MSc\Methods_ASM\SwahiliExp\cuddly-doodle","False","mono","False","32","no","black","no","Female","yes","1035","NA","NA","legacy","C:\Users\elian\Documents\Uni\MSc\Methods_ASM\SwahiliExp\cuddly-doodle\subject-14.csv","legacy","Neonatal Nightingale","4.1.0","NA","23","2","legacy","1024","2","48000","-16","experiment","14","even","NA","3175","418349","NA","NA","NA","NA","NA","NA","418366","443883","NA","NA","3164","NA","NA","NA","NA","NA","NA","NA","NA","NA","NA","NA","NA","NA","Pilot test","NA","yes","1663"
"3","0.294386567164179","1","difficult","fish","2465","1893","475957","Ok","2803","fish","4105","640.4725634374215","samaki","467894","468315","476870","474064","473067","468319","NA","474064","468961","468960","NA","1"
"61","0.158680303030303","1","easy","lemon","2465","592","484917","Ok","1491","lemon","2677","912.7463380668217","limau","467894","479733","485819","484325","483328","479736","NA","484325","480650","480649","NA","2"
"62","0.355907575757576","1","difficult","rope","2465","487","502931","Ok","1235","rope","12286","473.3910025192646","kamba","467894","488683","503682","502444","501448","488686","NA","502445","489160","489160","NA","3"
"19","0.287497014925373","1","difficult","wheel","2465","634","516540","Ok","1389","wheel","7380","979.107428838591","duara","467894","506543","517298","515906","514909","506546","NA","515906","507527","507527","NA","4"
"57","0.209593846153846","1","easy","bus","2465","524","525843","Ok","3067","bus","3590","556.8245729540121","basi","467894","520170","528389","525319","524322","520173","NA","525319","520731","520730","NA","5"
"44","0.199686567164179","1","easy","soul","2465","401","541063","Ok","841","soul","7464","948.1205507214441","roho","467894","531245","541506","540662","539666","531250","NA","540663","532200","532199","NA","6"
"54","0.207071212121212","1","easy","glasses","2465","370","562123","Ok","1351","glasses","15385","996.2594830063127","degaga","467894","544368","563107","561753","560756","544371","NA","561753","545369","545369","NA","7"
"50","0.315827272727273","1","difficult","society","2465","990","569756","Ok","2337","society","1248","538.2342034011679","chama","467894","565975","571106","568766","567770","565978","NA","568767","566518","566518","NA","8"
"5","0.34374","1","difficult","office","2465","295","589694","Ok","1655","office","13926","496.8236363575918","afisi","467894","573974","591057","589399","588403","573977","NA","589400","574475","574474","NA","9"
"2","0.178725757575757","1","easy","beer","2465","300","597805","Ok","1482","beer","1983","597.3566983649405","pombe","467894","593922","598990","597505","596509","593925","NA","597506","594524","594523","NA","10"
"57","0.209593846153846","1","easy","bus","1965","411","609012","Ok","966","bus","4856","843.601050428907","basi","467894","601898","609569","608601","607604","601901","NA","608601","602745","594523","602745","11"
"50","0.315827272727273","1","difficult","society","1965","291","615059","Ok","1059","society","909","924.9429007221335","chama","467894","611931","615830","614768","613771","611934","NA","614768","612860","594523","612859","12"
"44","0.199686567164179","1","easy","soul","1965","286","620928","Ok","662","soul","1009","441.63306223524506","roho","467894","618188","621306","620642","619646","618191","NA","620642","618634","594523","618634","13"
"5","0.34374","1","difficult","office","1965","297","626715","Ok","1490","office","943","800.6850655443213","afisi","467894","623669","627911","626418","625421","623673","NA","626418","624475","594523","624474","14"
"2","0.178725757575757","1","easy","beer","1965","263","632667","Ok","655","beer","595","529.2205798286128","pombe","467894","630276","633062","632404","631408","630279","NA","632405","630810","594523","630810","15"
"3","0.294386567164179","1","difficult","fish","1965","324","638386","Ok","739","fish","760","866.1239433976009","samaki","467894","635431","638804","638062","637065","635435","NA","638062","636303","594523","636302","16"
"62","0.355907575757576","1","difficult","rope","1965","287","647648","Ok","723","rope","4279","879.0650811373835","kamba","467894","641198","648087","647361","646364","641201","NA","647361","642082","594523","642082","17"
"61","0.158680303030303","1","easy","lemon","1965","313","653561","Ok","995","lemon","843","953.098232306446","limau","467894","650448","654246","653248","652252","650452","NA","653249","651407","594523","651406","18"
"19","0.287497014925373","1","difficult","wheel","1965","260","660900","Ok","772","wheel","2034","994.443932555474","duara","467894","656608","661415","660640","659644","656611","NA","660641","657607","594523","657607","19"
"54","0.207071212121212","1","easy","glasses","1965","128","666304","Ok","910","glasses","819","570.9996626286191","degaga","467894","663783","667089","666176","665179","663787","NA","666176","664359","594523","664358","20"
"2","0.178725757575757","1","easy","beer","1465","505","672062","Ok","1192","beer","687","417.71522162092316","pombe","467894","669448","672752","671557","670560","669452","NA","671557","669871","594523","669870","21"
"57","0.209593846153846","1","easy","bus","1465","298","677448","Ok","706","bus","551","982.6806973355151","basi","467894","674613","677859","677150","676153","674616","NA","677150","675600","594523","675600","22"
"54","0.207071212121212","1","easy","glasses","1465","332","682053","Ok","1136","glasses","521","470.7267070807202","degaga","467894","679725","682860","681721","680725","679729","NA","681721","680201","594523","680201","23"
"62","0.355907575757576","1","difficult","rope","1465","3301","695529","Ok","3659","rope","5978","517.0761243157338","kamba","467894","684729","695889","692228","691232","684732","NA","692229","685251","594523","685251","24"
"50","0.315827272727273","1","difficult","society","1465","249","700243","Ok","1201","society","802","439.03404041519724","chama","467894","697749","701200","699994","698998","697752","NA","699994","698193","594523","698193","25"
"5","0.34374","1","difficult","office","1465","283","706486","Ok","1178","office","1347","789.2080468188312","afisi","467894","703063","707384","706203","705207","703066","NA","706204","703857","594523","703857","26"
"61","0.158680303030303","1","easy","lemon","1465","91","711643","Ok","826","lemon","679","612.9936185750136","limau","467894","709257","712380","711552","710556","709260","NA","711553","709875","594523","709875","27"
"44","0.199686567164179","1","easy","soul","1465","266","717682","Ok","682","soul","1548","622.0851149031715","roho","467894","714239","718101","717416","716419","714244","NA","717416","714868","594523","714868","28"
"3","0.294386567164179","1","difficult","fish","1465","253","723161","Ok","604","fish","1086","846.2958701442451","samaki","467894","719972","723514","722908","721912","719975","NA","722908","720823","594523","720823","29"
"19","0.287497014925373","1","difficult","wheel","1465","96","728594","Ok","663","wheel","1612","475.7807104431978","duara","467894","725405","729164","728498","727502","725409","NA","728498","725886","594523","725886","30"
"2","0.178725757575757","1","easy","beer","965","243","733641","Ok","732","beer","723","648.6265652029388","pombe","467894","731024","734133","733398","732402","731027","NA","733398","731676","594523","731676","31"
"44","0.199686567164179","1","easy","soul","965","249","738084","Ok","640","soul","766","590.2667417480826","roho","467894","735475","738478","737835","736838","735477","NA","737835","736069","594523","736069","32"
"5","0.34374","1","difficult","office","965","317","743345","Ok","1336","office","1575","608.9001679511705","afisi","467894","739841","744367","743028","742031","739844","NA","743028","740454","594523","740453","33"
"50","0.315827272727273","1","difficult","society","965","72","748532","Ok","1209","society","1056","668.8081117058948","chama","467894","745734","749672","748460","747464","745737","NA","748460","746407","594523","746406","34"
"19","0.287497014925373","1","difficult","wheel","2465","364","760956","Ok","946","rope","8033","523.5714036837168","duara","467894","751033","749672","760592","759596","751036","761541","760592","751561","594523","751560","35"
"61","0.158680303030303","1","easy","lemon","965","402","767504","Ok","1329","lemon","824","838.5745238212487","limau","467894","764434","768434","767102","766105","764438","761541","767102","765278","594523","765278","36"
"3","0.294386567164179","1","difficult","fish","965","278","772669","Ok","889","fish","737","860.7542777693825","samaki","467894","769789","773285","772391","771395","769792","761541","772392","770655","594523","770655","37"
"54","0.207071212121212","1","easy","glasses","965","272","777317","Ok","1108","glasses","699","693.2999113174633","degaga","467894","774648","778156","777045","776048","774651","761541","777045","775346","594523","775346","38"
"62","0.355907575757576","1","difficult","rope","965","316","785199","Ok","869","rope","3428","933.8808157194535","kamba","467894","779518","785756","784883","783886","779521","761541","784883","780456","594523","780456","39"
"57","0.209593846153846","1","easy","bus","965","357","789675","Ok","658","bus","565","639.8075591836391","basi","467894","787110","789979","789318","788321","787112","761541","789318","787753","594523","787752","40"
"57","0.209593846153846","1","easy","bus","465","300","794319","Ok","587","bus","1205","471.84448164108113","basi","467894","791340","794609","794019","793023","791343","761541","794020","791816","594523","791816","41"
"5","0.34374","1","difficult","office","465","324","798308","Ok","1056","office","547","951.3008479008655","afisi","467894","795479","799042","797984","796986","795483","761541","797984","796436","594523","796436","42"
"62","0.355907575757576","1","difficult","rope","465","344","803933","Ok","716","rope","2052","593.6755279838678","kamba","467894","799939","804308","803589","802592","799942","761541","803590","800538","594523","800538","43"
"19","0.287497014925373","1","difficult","wheel","1965","283","808153","Ok","753","wheel","1029","670.2887352522328","duara","467894","805168","808626","807870","806874","805171","761541","807871","805843","594523","805842","44"
"44","0.199686567164179","1","easy","soul","465","254","813933","Ok","627","soul","774","916.291762569555","roho","467894","810983","814309","813679","812681","810987","761541","813679","811905","594523","811905","45"
"54","0.207071212121212","1","easy","glasses","465","300","817924","Ok","1019","glasses","582","867.7235349083945","degaga","467894","815170","818646","817624","816627","815173","761541","817624","816043","594523","816043","46"
"2","0.178725757575757","1","easy","beer","465","1","821683","Ok","687","beer","646","524.9668057973469","pombe","467894","819507","822372","821682","820684","819510","761541","821682","820036","594523","820035","47"
"50","0.315827272727273","1","difficult","society","465","240","826010","Ok","934","society","761","732.711300392825","chama","467894","823273","826706","825770","824773","823275","761541","825770","824009","594523","824009","48"
"61","0.158680303030303","1","easy","lemon","465","364","830284","Ok","1233","lemon","541","763.1833239337805","limau","467894","827612","831155","829920","828924","827616","761541","829920","828380","594523","828380","49"
"3","0.294386567164179","1","difficult","fish","465","87","834381","Ok","587","fish","563","706.5575595949177","samaki","467894","832021","834885","834294","833298","832024","761541","834294","832732","594523","832732","50"
"5","0.34374","1","difficult","office","0","335","839291","Ok","1020","office","1566","642.6053902054782","afisi","467894","835744","839979","838956","837960","835747","761541","838957","836391","594523","836391","51"
"54","0.207071212121212","1","easy","glasses","0","291","843379","Ok","1207","glasses","988","717.2378828478818","degaga","467894","840378","844298","843088","842091","840380","761541","843088","841100","594523","841100","52"
"2","0.178725757575757","1","easy","beer","0","86","847013","Ok","609","beer","560","684.7953503476804","pombe","467894","844680","847539","846927","845930","844683","761541","846927","845369","594523","845368","53"
"44","0.199686567164179","1","easy","soul","0","288","850660","Ok","724","soul","562","842.8603362134334","roho","467894","847965","851099","850372","849376","847968","761541","850372","848811","594523","848811","54"
"19","0.287497014925373","1","difficult","wheel","1465","30","853701","Ok","628","wheel","586","495.23272654330964","duara","467894","851584","854301","853671","852675","851589","761541","853672","852086","594523","852086","55"
"62","0.355907575757576","1","difficult","rope","0","250","859745","Ok","630","rope","1439","905.578116794501","kamba","467894","856146","860129","859495","858499","856149","761541","859496","857057","594523","857057","56"
"61","0.158680303030303","1","easy","lemon","0","334","863649","Ok","1260","lemon","1103","687.0231317063163","limau","467894","860522","864577","863315","862318","860525","761541","863315","861214","594523","861213","57"
"3","0.294386567164179","1","difficult","fish","0","309","867385","Ok","691","fish","631","479.48386645429594","samaki","467894","864961","867770","867076","866079","864964","761541","867076","865445","594523","865445","58"
"50","0.315827272727273","1","difficult","society","0","269","870685","Ok","971","society","785","466.5517206003526","chama","467894","868161","871390","870416","869419","868164","761541","870416","868632","594523","868632","59"
"57","0.209593846153846","1","easy","bus","0","333","875119","Ok","628","bus","1043","938.8254488068702","basi","467894","871803","875417","874786","873790","871806","761541","874787","872746","594523","872745","60"
"27","0.222377272727273","2","easy","sky","2965","583","904849","Ok","868","sky","5919","921.7895311788013","anga","467894","896421","905137","904266","903269","896425","761541","904266","897348","897347","872745","61"
"29","0.18435303030303","2","easy","dog","2965","322","919000","Ok","644","dog","8571","558.6299396956196","mbwa","467894","908544","919326","918678","917681","908547","761541","918678","909107","909107","872745","62"
"7","0.210024615384615","2","easy","eye","2965","1111","941604","Ok","1817","eye","16217","580.753824064038","jicho","467894","922691","942314","940493","939497","922695","761541","940493","923277","923277","872745","63"
"9","0.347927272727273","2","difficult","police","2965","330","952263","Ok","1172","police","4647","599.2931372103612","askari","467894","945681","953108","951933","950936","945684","761541","951933","946286","946286","872745","64"
"48","0.207198461538461","2","easy","garden","2965","301","961491","Ok","983","garden","2723","994.6362129029873","bustani","467894","956470","962176","961190","960194","956473","761541","961191","957468","957468","872745","65"
"63","0.216794029850746","2","easy","storm","2965","579","975971","Ok","2511","storm","7854","992.6540353127211","dhoruba","467894","965540","977905","975392","974395","965544","761541","975392","966538","966538","872745","66"
"52","0.315165151515151","2","difficult","wonder","2965","305","995786","Ok","1107","wonder","12279","877.6533429801827","ajabu","467894","981322","996591","995481","994484","981324","761541","995481","982203","982202","872745","67"
"17","0.307474242424242","2","difficult","holays","2965","555","1009795","Ok","1850","holays","7388","865.8790751109174","likizo","467894","999982","1011093","1009240","1008244","999986","761541","1009240","1000853","1000853","872745","68"
"14","0.3337796875","2","difficult","voice","2965","373","1021202","Ok","977","voice","4455","908.2236444185085","sauti","467894","1014462","1021809","1020829","1019833","1014465","761541","1020829","1015376","1015375","872745","69"
"31","0.319181818181818","2","difficult","letter","2965","425","1034464","Ok","1451","letter","6979","822.5964246695955","barua","467894","1025233","1035493","1034039","1033042","1025235","761541","1034039","1026060","1026060","872745","70"
"48","0.207198461538461","2","easy","garden","2965","320","1042988","Ok","1610","garden","1932","866.1295335308005","bustani","467894","1038865","1044281","1042668","1041672","1038868","761541","1042669","1039737","1026060","1039737","71"
"7","0.210024615384615","2","easy","eye","2965","295","1050277","Ok","549","eye","734","612.0217058271656","jicho","467894","1047632","1050534","1049982","1048985","1047635","761541","1049982","1048249","1026060","1048248","72"
"9","0.347927272727273","2","difficult","police","2965","258","1058564","Ok","1133","police","2709","684.5879175751995","askari","467894","1053909","1059442","1058306","1057310","1053912","761541","1058307","1054598","1026060","1054598","73"
"52","0.315165151515151","2","difficult","wonder","2965","267","1066554","Ok","850","wonder","1537","917.799558136419","ajabu","467894","1062829","1067140","1066287","1065290","1062832","761541","1066287","1063750","1026060","1063750","74"
"29","0.18435303030303","2","easy","dog","2965","295","1073400","Ok","699","dog","742","874.4513150764332","mbwa","467894","1070485","1073807","1073105","1072109","1070488","761541","1073105","1071364","1026060","1071364","75"
"17","0.307474242424242","2","difficult","holays","2965","273","1079631","Ok","1249","holays","614","575.1682847218597","likizo","467894","1077166","1080611","1079358","1078362","1077168","761541","1079359","1077745","1026060","1077745","76"
"31","0.319181818181818","2","difficult","letter","2965","259","1087311","Ok","905","letter","1474","600.727884368569","barua","467894","1083974","1087960","1087052","1086055","1083977","761541","1087052","1084579","1026060","1084578","77"
"14","0.3337796875","2","difficult","voice","2965","274","1094111","Ok","857","voice","567","964.6035941237702","sauti","467894","1091301","1094697","1093837","1092840","1091304","761541","1093837","1092270","1026060","1092270","78"
"27","0.222377272727273","2","easy","sky","2965","240","1101195","Ok","553","sky","1129","773.7927389332561","anga","467894","1098045","1101510","1100955","1099957","1098048","761541","1100955","1098824","1026060","1098824","79"
"63","0.216794029850746","2","easy","storm","2965","298","1107803","Ok","1138","storm","1025","602.305190656049","dhoruba","467894","1104873","1108646","1107505","1106509","1104877","761541","1107506","1105481","1026060","1105481","80"
"63","0.216794029850746","2","easy","storm","2965","211","1114733","Ok","1095","storm","746","729.2582339998532","dhoruba","467894","1112044","1115620","1114522","1113526","1112047","761541","1114523","1112778","1026060","1112777","81"
"48","0.207198461538461","2","easy","garden","2965","243","1121240","Ok","905","garden","562","444.3284101288076","bustani","467894","1118987","1121904","1120997","1120000","1118990","761541","1120997","1119436","1026060","1119435","82"
"29","0.18435303030303","2","easy","dog","2965","125","1127902","Ok","406","dog","628","882.2927964933201","mbwa","467894","1125264","1128185","1127777","1126781","1125267","761541","1127778","1126151","1026060","1126150","83"
"7","0.210024615384615","2","easy","eye","2965","38","1133733","Ok","452","eye","617","531.9918743778114","jicho","467894","1131542","1134150","1133695","1132698","1131546","761541","1133695","1132079","1026060","1132079","84"
"52","0.315165151515151","2","difficult","wonder","2965","44","1140738","Ok","613","wonder","1246","930.6095039630051","ajabu","467894","1137513","1141310","1140694","1139697","1137516","761541","1140694","1138448","1026060","1138448","85"
"27","0.222377272727273","2","easy","sky","2965","304","1147002","Ok","645","sky","572","454.3350532307059","anga","467894","1144668","1147346","1146698","1145702","1144670","761541","1146699","1145127","1026060","1145127","86"
"31","0.319181818181818","2","difficult","letter","2965","298","1154855","Ok","947","letter","1934","874.1216838504158","barua","467894","1150739","1155507","1154557","1153560","1150743","761541","1154558","1151620","1026060","1151620","87"
"17","0.307474242424242","2","difficult","holays","2965","497","1162066","Ok","1319","holays","777","885.2435129374077","likizo","467894","1158902","1162891","1161569","1160572","1158905","761541","1161569","1159792","1026060","1159792","88"
"14","0.3337796875","2","difficult","voice","2965","281","1168954","Ok","726","voice","725","690.9078022921638","sauti","467894","1166252","1169401","1168673","1167676","1166255","761541","1168673","1166948","1026060","1166948","89"
"9","0.347927272727273","2","difficult","police","2965","266","1176308","Ok","904","police","1592","678.622214143461","askari","467894","1172766","1176949","1176042","1175044","1172769","761541","1176042","1173449","1026060","1173449","90"
"48","0.207198461538461","2","easy","garden","2965","316","1182817","Ok","928","garden","508","676.4089622685424","bustani","467894","1180312","1183432","1182501","1181505","1180315","761541","1182502","1180994","1026060","1180993","91"
"29","0.18435303030303","2","easy","dog","2965","430","1189600","Ok","758","dog","523","863.7406708635762","mbwa","467894","1186780","1189931","1189170","1188174","1186783","761541","1189171","1187648","1026060","1187648","92"
"17","0.307474242424242","2","difficult","holays","2965","321","1196083","Ok","968","holays","546","902.9174680735807","likizo","467894","1193306","1196732","1195762","1194765","1193309","761541","1195762","1194214","1026060","1194214","93"
"27","0.222377272727273","2","easy","sky","2965","348","1202997","Ok","661","sky","591","923.2070642582461","anga","467894","1200132","1203314","1202649","1201653","1200135","761541","1202650","1201060","1026060","1201059","94"
"52","0.315165151515151","2","difficult","wonder","2965","282","1209127","Ok","783","wonder","534","625.5753298233697","ajabu","467894","1206681","1209631","1208845","1207848","1206684","761541","1208845","1207311","1026060","1207311","95"
"14","0.3337796875","2","difficult","voice","2965","282","1215623","Ok","832","voice","810","527.1294941051974","sauti","467894","1212999","1216177","1215341","1214343","1213002","761541","1215341","1213531","1026060","1213531","96"
"63","0.216794029850746","2","easy","storm","2965","281","1222105","Ok","986","storm","847","425.78058226729536","dhoruba","467894","1219548","1222813","1221824","1220828","1219551","761541","1221825","1219978","1026060","1219978","97"
"7","0.210024615384615","2","easy","eye","2965","2","1228298","Ok","593","eye","609","513.8987376711555","jicho","467894","1226171","1228892","1228296","1227299","1226174","761541","1228296","1226689","1026060","1226688","98"
"31","0.319181818181818","2","difficult","letter","2965","554","1234936","Ok","1237","letter","537","570.6770755180662","barua","467894","1232271","1235622","1234382","1233385","1232273","761541","1234383","1232846","1026060","1232846","99"
"9","0.347927272727273","2","difficult","police","2965","301","1242133","Ok","2403","police","1262","565.3812821612446","askari","467894","1238998","1244238","1241832","1240834","1239002","761541","1241832","1239569","1026060","1239569","100"
"9","0.347927272727273","2","difficult","police","2965","275","1250916","Ok","1138","police","1067","966.3524085094264","askari","467894","1247603","1251782","1250641","1249643","1247606","761541","1250641","1248575","1026060","1248574","101"
"52","0.315165151515151","2","difficult","wonder","2965","272","1257743","Ok","810","wonder","784","538.4960834750472","ajabu","467894","1255144","1258284","1257471","1256475","1255148","761541","1257471","1255688","1026060","1255688","102"
"7","0.210024615384615","2","easy","eye","2965","234","1263923","Ok","787","eye","628","423.20894290559943","jicho","467894","1261634","1264478","1263689","1262693","1261637","761541","1263689","1262062","1026060","1262062","103"
"31","0.319181818181818","2","difficult","letter","2965","286","1270559","Ok","931","letter","622","810.4858796377164","barua","467894","1267837","1271207","1270273","1269277","1267840","761541","1270273","1268652","1026060","1268652","104"
"14","0.3337796875","2","difficult","voice","2965","288","1277330","Ok","781","voice","583","890.2784195810198","sauti","467894","1274566","1277826","1277042","1276046","1274569","761541","1277043","1275460","1026060","1275460","105"
"48","0.207198461538461","2","easy","garden","2965","280","1283613","Ok","1034","garden","512","597.6011991547837","bustani","467894","1281218","1284370","1283333","1282336","1281223","761541","1283333","1281822","1026060","1281821","106"
"63","0.216794029850746","2","easy","storm","2965","248","1290455","Ok","876","storm","560","913.8166745880949","dhoruba","467894","1287731","1291086","1290207","1289211","1287734","761541","1290207","1288649","1026060","1288648","107"
"29","0.18435303030303","2","easy","dog","2965","338","1297003","Ok","630","dog","535","679.4620506635482","mbwa","467894","1294448","1297299","1296665","1295668","1294450","761541","1296665","1295131","1026060","1295130","108"
"17","0.307474242424242","2","difficult","holays","2965","405","1303202","Ok","2814","holays","525","609.7340488999097","likizo","467894","1300658","1305615","1302797","1301800","1300660","761541","1302798","1301272","1026060","1301272","109"
"27","0.222377272727273","2","easy","sky","2965","290","1311255","Ok","594","sky","586","408.85493199655485","anga","467894","1308969","1311562","1310965","1309969","1308972","761541","1310965","1309381","1026060","1309381","110"
"27","0.222377272727273","2","easy","sky","2965","278","1317430","Ok","648","sky","709","529.4089094900493","anga","467894","1314910","1317804","1317152","1316156","1314913","761541","1317152","1315444","1026060","1315444","111"
"52","0.315165151515151","2","difficult","wonder","2965","263","1323970","Ok","838","wonder","557","982.0878788829584","ajabu","467894","1321165","1324548","1323707","1322710","1321168","761541","1323707","1322152","1026060","1322151","112"
"31","0.319181818181818","2","difficult","letter","2965","291","1330514","Ok","926","letter","494","783.5682232469521","barua","467894","1327943","1331152","1330223","1329227","1327947","761541","1330223","1328732","1026060","1328731","113"
"9","0.347927272727273","2","difficult","police","2965","314","1350778","Ok","1327","police","2030","698.2367403939022","askari","467894","1346733","1351794","1350464","1349468","1346737","761541","1350464","1347437","1026060","1347436","114"
"63","0.216794029850746","2","easy","storm","2965","279","1357792","Ok","765","storm","607","742.6671671491329","dhoruba","467894","1355160","1358281","1357513","1356516","1355163","761541","1357513","1355907","1026060","1355906","115"
"7","0.210024615384615","2","easy","eye","2965","298","1363873","Ok","539","eye","522","402.19734198210745","jicho","467894","1361646","1364118","1363575","1362579","1361650","761541","1363576","1362054","1026060","1362054","116"
"48","0.207198461538461","2","easy","garden","2965","287","1369673","Ok","873","garden","479","422.0015586047476","bustani","467894","1367480","1370262","1369386","1368390","1367484","761541","1369386","1367908","1026060","1367907","117"
"17","0.307474242424242","2","difficult","holays","2965","332","1376110","Ok","917","holays","655","488.5469026903725","likizo","467894","1373629","1376697","1375778","1374781","1373632","761541","1375778","1374122","1026060","1374122","118"
"29","0.18435303030303","2","easy","dog","2965","80","1382305","Ok","478","dog","490","626.9171511571072","mbwa","467894","1380103","1382706","1382225","1381228","1380106","761541","1382225","1380735","1026060","1380735","119"
"14","0.3337796875","2","difficult","voice","2965","297","1388735","Ok","873","voice","436","940.4146508992345","sauti","467894","1386054","1389314","1388438","1387440","1386059","761541","1388438","1387001","1026060","1387001","120"
