"ID","alpha","block","diff","english","exposure","first_key_rt","first_key_timestamp","form_response","last_key_rt","response","retrieval_t","rv_trial","swahili","time_block_loop","time_block_sequence","time_correct_answer","time_cue","time_fixation_cross","time_fixation_dot","time_incorrect_answer","time_keyboard","time_press_spacebar","time_study_screen","time_test_screen","trial"
"NA","NA","NA","NA","NA","NA","NA","NA","22","NA","22","NA","NA","NA","NA","NA","NA","NA","NA","NA","NA","NA","NA","NA","NA","NA"
"NA","NA","NA","NA","NA","NA","NA","NA","Female","NA","Female","NA","NA","NA","NA","NA","NA","NA","NA","NA","NA","NA","NA","NA","NA","NA"
"49","0.191309231","1","easy","secret","2965","1407","124597","Ok","4129","secret","3593","894.7575751354364","siri","117265","117695","127322","123190","122194","117702","NA","123190","118598","118598","NA","1"
"50","0.315827273","1","difficult","society","2965","2","135303","Ok","5354","chama","3193","409.58379972427724","chama","117265","130695","127322","135301","134304","130698","140658","135301","131109","131108","NA","2"
"37","0.167559091","1","easy","skirt","2965","920","151440","Ok","2152","skirt","4542","949.7992471645304","skati","117265","144024","152675","150520","149523","144027","140658","150520","144978","144978","NA","3"
"32","0.344718182","1","difficult","party","2965","872","161942","Ok","1815","party","3202","838.9149075702992","karamu","117265","156027","162888","161070","160074","156030","140658","161071","156869","156869","NA","4"
"51","0.39958806","1","difficult","church","2965","806","171380","Ok","2511","church","2713","585.6994563530925","kanisa","117265","166273","173088","170574","169578","166277","140658","170575","166864","166863","NA","5"
"56","0.305624242","1","difficult","interest","2965","854","181484","Ok","5711","interest","2509","672.0963631730752","maslahi","117265","176446","186343","180630","179634","176449","140658","180630","177123","177122","NA","6"
"64","0.353060606","1","difficult","boy","2965","2244","195849","Ok","2908","boy","2241","650.7866871914807","kijana","117265","189709","196515","193605","192608","189712","140658","193605","190364","190364","NA","7"
"34","0.175557576","1","easy","grandmother","2965","791","203737","Ok","5793","grandmother","1526","533.2364489192479","bibi","117265","199882","208742","202946","201949","199884","140658","202946","200420","200420","NA","8"
"44","0.199686567","1","easy","soul","2965","1370","216369","Ok","2459","soul","1405","493.39628149627276","roho","117265","212097","217461","214999","214003","212100","140658","214999","212595","212595","NA","9"
"27","0.222377273","1","easy","sky","2965","781","224381","Ok","1405","sky","1099","669.3826810606115","anga","117265","220828","225008","223600","222604","220831","140658","223600","221502","221502","NA","10"
"37","0.167559091","1","easy","skirt","2965","1986","242119","Ok","3706","skirt","9995","731.6266762459792","skati","117265","228402","243842","240133","239135","228405","140658","240133","229138","221502","229138","11"
"51","0.39958806","1","difficult","church","2965","270","254659","Ok","1874","church","5313","868.9639926436049","kanisa","117265","247205","256265","254389","253392","247207","140658","254389","248077","221502","248076","12"
"44","0.199686567","1","easy","soul","2965","464","263109","Ok","1338","soul","1579","436.52728880345603","roho","117265","259628","263986","262645","261649","259631","140658","262645","260068","221502","260068","13"
"64","0.353060606","1","difficult","boy","2965","2","295513","Ok","2410","river","26377","772.2613732717228","kijana","117265","267358","263986","295511","294514","267361","297924","295511","268135","221502","268135","14"
"27","0.222377273","1","easy","sky","2965","503","308161","Ok","2083","girl","4955","417.1648443360545","anga","117265","301282","263986","307658","306662","301285","309744","307659","301704","221502","301704","15"
"50","0.315827273","1","difficult","society","2965","697","324327","Ok","1576","sky","8823","693.7852879962286","chama","117265","313110","263986","323630","322634","313113","325209","323630","313808","221502","313808","16"
"34","0.175557576","1","easy","grandmother","2965","317","332002","Ok","2671","grandmother","1132","949.5072064037944","bibi","117265","328599","334360","331685","330689","328603","325209","331686","329554","221502","329554","17"
"56","0.305624242","1","difficult","interest","2965","403","347843","Ok","1268","sky","8242","472.92425265908116","maslahi","117265","337723","334360","347440","346444","337725","348711","347440","338199","221502","338199","18"
"49","0.191309231","1","easy","secret","2965","416","356804","Ok","2188","secret","2452","862.0049017357743","siri","117265","352071","358579","356388","355392","352073","348711","356388","352937","221502","352937","19"
"32","0.344718182","1","difficult","party","2965","387","365487","Ok","1782","party","1475","684.2723242841519","karamu","117265","361937","366884","365100","364103","361940","348711","365100","362626","221502","362625","20"
"44","0.199686567","1","easy","soul","2965","749","377320","Ok","1487","soul","4496","821.6825192648902","roho","117265","370249","378061","376571","375575","370252","348711","376571","371076","221502","371076","21"
"64","0.353060606","1","difficult","boy","2965","567","386584","Ok","1554","church","2981","597.2639440117981","kijana","117265","381433","378061","386017","385020","381437","387574","386017","382036","221502","382036","22"
"37","0.167559091","1","easy","skirt","2965","397","394738","Ok","1527","skirt","1510","891.6507765344579","skati","117265","390936","395871","394341","393344","390939","387574","394341","391832","221502","391831","23"
"32","0.344718182","1","difficult","party","2965","499","403544","Ok","1746","party","2059","749.3385023899776","karamu","117265","399232","404793","403045","402048","399235","387574","403045","399986","221502","399986","24"
"56","0.305624242","1","difficult","interest","2965","359","420799","Ok","1613","society","10712","577.8537353253982","maslahi","117265","408149","404793","420440","419444","408152","422056","420441","408731","221502","408730","25"
"27","0.222377273","1","easy","sky","2965","318","436876","Ok","1526","society","9348","788.1434686181697","anga","117265","425417","404793","436558","435560","425420","438087","436558","426210","221502","426210","26"
"34","0.175557576","1","easy","grandmother","2965","379","444208","Ok","2451","grandmother","826","538.4307011974591","bibi","117265","441461","446282","443829","442832","441464","438087","443829","442004","221502","442004","27"
"50","0.315827273","1","difficult","society","2965","368","457256","Ok","1507","society","5742","510.64767587043843","chama","117265","449633","458398","456888","455892","449636","438087","456888","450148","221502","450147","28"
"51","0.39958806","1","difficult","church","2965","280","469514","Ok","818","girl","5992","477.75611884405754","kanisa","117265","461761","458398","469234","468237","461764","470055","469234","462243","221502","462243","29"
"49","0.191309231","1","easy","secret","2965","337","476547","Ok","2102","secret","1323","425.6770220820164","siri","117265","473459","478315","476210","475214","473462","470055","476210","473889","221502","473888","30"
"56","0.305624242","1","difficult","interest","2965","292","492931","Ok","1770","interest","9021","935.3914266163742","maslahi","117265","481678","494412","492639","491641","481680","470055","492639","482617","221502","482617","31"
"49","0.191309231","1","easy","secret","2965","555","500862","Ok","1936","secret","849","654.9019484303244","siri","117265","497799","502246","500307","499309","497802","470055","500307","498458","221502","498458","32"
"44","0.199686567","1","easy","soul","2965","4942","516256","Ok","7825","society","3926","746.735766648183","roho","117265","505640","502246","511314","510317","505642","519142","511314","506390","221502","506389","33"
"37","0.167559091","1","easy","skirt","2965","343","525704","Ok","1096","skirt","1120","682.9311986274697","skati","117265","522554","526460","525361","524364","522557","519142","525361","523241","221502","523241","34"
"32","0.344718182","1","difficult","party","2965","366","532879","Ok","1343","party","1015","664.192295137611","karamu","117265","529830","533858","532513","531517","529832","519142","532514","530499","221502","530499","35"
"50","0.315827273","1","difficult","society","2965","393","541331","Ok","1462","church","2027","641.2079056451278","chama","117265","537265","533858","540938","539941","537269","542403","540938","537912","221502","537912","36"
"34","0.175557576","1","easy","grandmother","2965","1654","550023","Ok","3178","grandmother","906","691.921115434784","bibi","117265","545767","551550","548369","547372","545770","542403","548369","546463","221502","546463","37"
"64","0.353060606","1","difficult","boy","2965","541","558040","Ok","902","boy","1162","414.25018844999","kijana","117265","554920","558404","557499","556503","554923","542403","557500","555338","221502","555338","38"
"27","0.222377273","1","easy","sky","2965","401","569946","Ok","1228","sky","6294","483.80630194140355","anga","117265","561764","570776","569545","568549","561767","542403","569546","562252","221502","562252","39"
"51","0.39958806","1","difficult","church","2965","330","582065","Ok","1116","church","5853","734.4875158840904","kanisa","117265","574144","582854","581735","580738","574147","542403","581735","574883","221502","574882","40"
"32","0.344718182","1","difficult","party","2965","355","589023","Ok","1278","party","895","552.9409258632218","karamu","117265","586219","589949","588668","587672","586222","542403","588669","586775","221502","586775","41"
"37","0.167559091","1","easy","skirt","2965","357","596184","Ok","1091","skirt","702","809.4518241454186","skati","117265","593312","596921","595827","594830","593315","542403","595827","594126","221502","594125","42"
"56","0.305624242","1","difficult","interest","2965","268","607359","Ok","1762","interest","5082","691.6291864029836","maslahi","117265","600313","608857","607091","606094","600316","542403","607092","601009","221502","601009","43"
"27","0.222377273","1","easy","sky","2965","287","616049","Ok","764","sky","1643","897.0196176788825","anga","117265","612219","616529","615762","614765","612222","542403","615762","613121","221502","613120","44"
"34","0.175557576","1","easy","grandmother","2965","334","623112","Ok","2138","grandmother","965","905.0542698568001","bibi","117265","619902","624920","622778","621782","619905","542403","622778","620812","221502","620812","45"
"64","0.353060606","1","difficult","boy","2965","399","631287","Ok","1494","boy","1003","599.9410229450539","kijana","117265","628282","632385","630888","629892","628285","542403","630888","628886","221502","628886","46"
"44","0.199686567","1","easy","soul","2965","276","639312","Ok","927","soul","1640","662.98277859918","roho","117265","635732","639967","639036","638040","635734","542403","639036","636399","221502","636398","47"
"51","0.39958806","1","difficult","church","2965","365","647173","Ok","1137","church","2008","466.15693509354014","kanisa","117265","643330","647948","646808","645812","643333","542403","646808","643801","221502","643801","48"
"49","0.191309231","1","easy","secret","2965","303","653831","Ok","1598","secret","688","481.2679001958595","siri","117265","651355","655128","653528","652532","651359","542403","653528","651842","221502","651841","49"
"50","0.315827273","1","difficult","society","2965","285","661747","Ok","1030","society","1112","845.7601386826937","chama","117265","658499","662495","661462","660465","658502","542403","661462","659350","221502","659350","50"
"51","0.39958806","1","difficult","church","2965","311","668573","Ok","989","chruch","912","481.2834198904303","kanisa","117265","665865","662495","668262","667266","665868","669254","668263","666352","221502","666352","51"
"32","0.344718182","1","difficult","party","2965","350","675858","Ok","1344","party","1145","743.417963821611","karamu","117265","672616","676856","675508","674511","672619","669254","675508","673364","221502","673363","52"
"50","0.315827273","1","difficult","society","2965","334","683696","Ok","1339","society","1364","766.9754676894457","chama","117265","680228","684704","683362","682365","680231","669254","683362","680998","221502","680998","53"
"37","0.167559091","1","easy","skirt","2965","357","691169","Ok","1411","skirt","892","850.9755715735971","skati","117265","688066","692226","690812","689816","688069","669254","690812","688921","221502","688921","54"
"44","0.199686567","1","easy","soul","2965","403","698495","Ok","903","soul","649","813.1005627201629","roho","117265","695621","698998","698092","697095","695629","669254","698092","696444","221502","696444","55"
"56","0.305624242","1","difficult","interest","2965","203","705848","Ok","1622","interest","1711","565.4348281373153","maslahi","117265","702364","707270","705645","704647","702367","669254","705645","702934","221502","702934","56"
"27","0.222377273","1","easy","sky","2965","8071","721339","Ok","8564","sky","948","688.3465974404528","anga","117265","710627","721836","713268","712271","710630","669254","713268","711320","221502","711320","57"
"34","0.175557576","1","easy","grandmother","2965","237","727800","Ok","1882","grandmother","740","618.6177489921654","bibi","117265","725201","729448","727563","726567","725203","669254","727564","725824","221502","725824","58"
"64","0.353060606","1","difficult","boy","2965","292","735564","Ok","1101","boy","859","581.0376722594684","kijana","117265","732829","736376","735272","734276","732832","669254","735273","733415","221502","733415","59"
"49","0.191309231","1","easy","secret","2965","215","742119","Ok","1816","secret","658","518.802151454139","siri","117265","739723","743723","741904","740906","739726","669254","741904","740246","221502","740246","60"
"45","0.219891045","2","easy","door","2465","1041","754300","Ok","1426","door","1498","775.15927796359","lango","117265","749979","754688","753259","752262","749984","669254","753259","750761","750761","740246","61"
"67","0.20078806","2","easy","apple","2465","400","761824","Ok","1783","apple","1859","968.538819552775","tofaa","117265","757592","763210","761424","760427","757594","669254","761424","758565","758565","740246","62"
"35","0.275992424","2","difficult","doctor","2465","756","773050","Ok","1443","doctor","4595","620.4697228050213","tabibu","117265","766074","773740","772294","771297","766077","669254","772294","766699","766699","740246","63"
"33","0.225168182","2","easy","honor","2465","581","782536","Ok","1419","honor","3446","895.1636191358236","adhama","117265","776610","783377","781955","780958","776613","669254","781955","777510","777509","740246","64"
"26","0.351680597","2","difficult","scissors","2465","256","791401","Ok","1729","scissors","3094","804.0459824066829","chanjo","117265","786242","792877","791145","790147","786245","669254","791145","787051","787051","740246","65"
"2","0.178725758","2","easy","beer","2465","685","800329","Ok","1267","beer","2204","710.600918697171","pombe","117265","795726","800915","799644","798648","795728","669254","799645","796441","796441","740246","66"
"46","0.327142188","2","difficult","head","2465","310","808233","Ok","969","head","2516","621.1829455971956","kichwa","117265","803782","808894","807923","806925","803785","669254","807923","804408","804407","740246","67"
"63","0.21679403","2","easy","storm","3965","1260","819846","Ok","3676","srorm","5006","776.9795636850358","dhoruba","117265","811798","808894","818586","817589","811802","822265","818586","812580","812580","740246","68"
"69","0.368722388","2","difficult","bed","3965","76","831430","Ok","1872","kitanda","2996","726.3625835004045","kitanda","117265","826628","808894","831354","830357","826631","833233","831355","827359","827359","740246","69"
"13","0.307741538","2","difficult","song","2465","269","841113","Ok","810","song","1544","693.1212535299148","wimbo","117265","837602","841656","840844","839848","837606","833233","840845","838301","838301","740246","70"
"26","0.351680597","2","difficult","scissors","3465","2","855817","Ok","2244","chance","9733","554.3535959410129","chanjo","117265","844524","841656","855815","854818","844526","858062","855815","845082","838301","845082","71"
"69","0.368722388","2","difficult","bed","3465","270","865080","Ok","709","bed","1291","588.9678973290075","kitanda","117265","861928","865523","864810","863814","861931","858062","864810","862520","838301","862520","72"
"33","0.225168182","2","easy","honor","1965","544","877299","Ok","1540","honor","5813","535.7567622222372","adhama","117265","869402","878298","876755","875758","869405","858062","876755","869942","838301","869941","73"
"67","0.20078806","2","easy","apple","1965","328","883944","Ok","1401","apple","1067","832.7129793460615","tofaa","117265","880712","885020","883616","882619","880715","858062","883616","881549","838301","881549","74"
"45","0.219891045","2","easy","door","1965","264","892275","Ok","750","door","3010","480.59909393295663","lango","117265","887516","892764","892011","891014","887519","858062","892012","888001","838301","888001","75"
"63","0.21679403","2","easy","storm","3465","269","898931","Ok","1153","storm","1649","881.9615284759738","dhoruba","117265","895128","899819","898662","897665","895131","858062","898662","896014","838301","896013","76"
"35","0.275992424","2","difficult","doctor","1965","551","907532","Ok","1258","doctor","1869","421.1125766290811","tabibu","117265","903687","908243","906981","905984","903690","858062","906981","904112","838301","904112","77"
"2","0.178725758","2","easy","beer","1965","330","913362","Ok","1149","beer","802","620.9560461530228","pombe","117265","910604","914184","913032","912035","910608","858062","913032","911230","838301","911230","78"
"13","0.307741538","2","difficult","song","1965","321","919880","Ok","818","song","1441","567.1824838895287","wimbo","117265","916546","920380","919559","918562","916549","858062","919559","917118","838301","917118","79"
"46","0.327142188","2","difficult","head","1965","274","926794","Ok","904","head","1861","922.4950069270815","kichwa","117265","922734","927433","926520","925524","922736","858062","926520","923659","838301","923659","80"
"33","0.225168182","2","easy","honor","1465","247","932879","Ok","1050","honor","952","847.0828683150063","adhama","117265","929828","933685","932632","931636","929832","858062","932633","930681","838301","930681","81"
"67","0.20078806","2","easy","apple","1465","336","938354","Ok","1305","apple","800","677.7728366120319","tofaa","117265","935538","939326","938018","937022","935541","858062","938018","936220","838301","936219","82"
"35","0.275992424","2","difficult","doctor","1465","440","943743","Ok","1114","doctor","592","514.430782004833","tabibu","117265","941193","944419","943303","942307","941196","858062","943304","941713","838301","941712","83"
"26","0.351680597","2","difficult","scissors","2965","2","950452","Ok","1678","scissors","2482","680.930057028557","chanjo","117265","946284","952132","950450","949453","946287","858062","950450","946969","838301","946968","84"
"45","0.219891045","2","easy","door","1465","6","959356","Ok","649","door","2280","577.6346175872553","lango","117265","955485","960001","959350","958354","955487","858062","959351","956066","838301","956066","85"
"69","0.368722388","2","difficult","bed","2965","280","965003","Ok","694","bed","1285","563.8144247461553","kitanda","117265","961872","965420","964723","963726","961874","858062","964723","962438","838301","962438","86"
"46","0.327142188","2","difficult","head","1465","376","972257","Ok","1062","head","1124","927.3021606367782","kichwa","117265","968824","972946","971881","970884","968828","858062","971881","969757","838301","969757","87"
"13","0.307741538","2","difficult","song","1465","349","977565","Ok","875","song","808","616.8068084288143","wimbo","117265","974787","978094","977216","976219","974790","858062","977216","975408","838301","975408","88"
"2","0.178725758","2","easy","beer","1465","339","983089","Ok","905","beer","1012","780.8450638526533","pombe","117265","979955","983658","982750","981754","979958","858062","982751","980740","838301","980740","89"
"63","0.21679403","2","easy","storm","2965","268","988193","Ok","1325","storm","941","453.5301678695425","dhoruba","117265","985526","989253","987925","986928","985530","858062","987925","985985","838301","985984","90"
"13","0.307741538","2","difficult","song","965","286","995922","Ok","752","song","1263","751.9989037630925","wimbo","117265","992619","996391","995636","994639","992621","858062","995636","993373","838301","993373","91"
"45","0.219891045","2","easy","door","965","239","1000770","Ok","798","door","792","971.5186658883546","lango","117265","997762","1001333","1000531","999534","997765","858062","1000532","998739","838301","998739","92"
"69","0.368722388","2","difficult","bed","2465","314","1005282","Ok","799","bed","609","646.6018288973632","kitanda","117265","1002709","1005769","1004968","1003972","1002712","858062","1004969","1003360","838301","1003360","93"
"26","0.351680597","2","difficult","scissors","2465","316","1011530","Ok","1649","scissors","643","894.5853418216093","chanjo","117265","1008673","1012866","1011214","1010217","1008676","858062","1011214","1009572","838301","1009571","94"
"33","0.225168182","2","easy","honor","965","254","1018601","Ok","955","honor","991","637.7469304074025","adhama","117265","1015715","1019305","1018347","1017350","1015718","858062","1018347","1016357","838301","1016357","95"
"63","0.21679403","2","easy","storm","2465","166","1023648","Ok","991","storm","1146","660.438468475226","dhoruba","117265","1020670","1024476","1023482","1022486","1020675","858062","1023482","1021337","838301","1021337","96"
"2","0.178725758","2","easy","beer","965","275","1030185","Ok","824","beer","798","771.5632340395416","pombe","117265","1027336","1030736","1029910","1028913","1027339","858062","1029910","1028111","838301","1028111","97"
"67","0.20078806","2","easy","apple","965","394","1034952","Ok","1329","apple","669","779.1632899157756","tofaa","117265","1032104","1035890","1034558","1033561","1032108","858062","1034558","1032889","838301","1032889","98"
"35","0.275992424","2","difficult","doctor","965","301","1039898","Ok","1079","doctor","939","418.29254050523303","tabibu","117265","1037235","1040679","1039597","1038600","1037238","858062","1039597","1037658","838301","1037658","99"
"46","0.327142188","2","difficult","head","965","1974","1047133","Ok","2545","head","1170","907.9596184420809","kichwa","117265","1042077","1047707","1045159","1044162","1042081","858062","1045159","1042990","838301","1042989","100"
"46","0.327142188","2","difficult","head","465","240","1052695","Ok","759","head","1430","951.7275138917067","kichwa","117265","1049070","1053217","1052455","1051459","1049072","858062","1052455","1050026","838301","1050025","101"
"45","0.219891045","2","easy","door","465","251","1056860","Ok","791","door","805","727.7500171789832","lango","117265","1054072","1057403","1056609","1055611","1054075","858062","1056609","1054804","838301","1054804","102"
"2","0.178725758","2","easy","beer","465","263","1060557","Ok","846","beer","494","530.7896914655216","pombe","117265","1058268","1061143","1060294","1059298","1058270","858062","1060294","1058802","838301","1058801","103"
"63","0.21679403","2","easy","storm","1965","20","1064117","Ok","738","storm","545","545.8712522958756","dhoruba","117265","1062003","1064838","1064097","1063100","1062006","858062","1064097","1062552","838301","1062552","104"
"67","0.20078806","2","easy","apple","465","288","1069838","Ok","1081","apple","519","831.583526338936","tofaa","117265","1067196","1070634","1069550","1068553","1067199","858062","1069551","1068032","838301","1068032","105"
"26","0.351680597","2","difficult","scissors","1965","994","1074516","Ok","4079","scissors","615","407.0775806630585","chanjo","117265","1071494","1077604","1073522","1072525","1071497","858062","1073522","1071907","838301","1071907","106"
"69","0.368722388","2","difficult","bed","1965","233","1084690","Ok","640","bed","2677","777.2115011880667","kitanda","117265","1079998","1085100","1084457","1083460","1080001","858062","1084457","1080780","838301","1080780","107"
"35","0.275992424","2","difficult","doctor","465","329","1090433","Ok","1169","doctor","1224","426.6622185180099","tabibu","117265","1087451","1091276","1090104","1089108","1087454","858062","1090105","1087882","838301","1087881","108"
"13","0.307741538","2","difficult","song","465","339","1095074","Ok","767","song","784","806.8557065884522","wimbo","117265","1092141","1095505","1094735","1093739","1092144","858062","1094735","1092952","838301","1092952","109"
"33","0.225168182","2","easy","honor","465","2","1099145","Ok","702","honor","903","869.5793373488984","adhama","117265","1096366","1099848","1099143","1098146","1096369","858062","1099143","1097240","838301","1097240","110"
"46","0.327142188","2","difficult","head","0","1614","1104394","Ok","2177","head","608","444.5180200680501","kichwa","117265","1100723","1104960","1102780","1101783","1100726","858062","1102780","1101172","838301","1101172","111"
"26","0.351680597","2","difficult","scissors","1465","171","1107957","Ok","3212","scissors","730","708.027765166612","chanjo","117265","1105344","1111001","1107786","1106790","1105347","858062","1107786","1106057","838301","1106057","112"
"69","0.368722388","2","difficult","bed","1465","288","1115864","Ok","756","bed","1173","503.5965061976684","kitanda","117265","1112896","1116335","1115576","1114580","1112900","858062","1115576","1113405","838301","1113405","113"
"45","0.219891045","2","easy","door","0","2","1121036","Ok","705","door","1205","633.4297249638373","lango","117265","1118194","1121742","1121034","1120038","1118197","858062","1121035","1118832","838301","1118831","114"
"2","0.178725758","2","easy","beer","0","306","1124924","Ok","921","beer","738","738.4974325657417","pombe","117265","1122137","1125542","1124618","1123621","1122140","858062","1124618","1122880","838301","1122880","115"
"13","0.307741538","2","difficult","song","0","228","1128700","Ok","700","song","1096","436.209442449259","wimbo","117265","1125935","1129175","1128472","1127475","1125938","858062","1128472","1126376","838301","1126376","116"
"63","0.21679403","2","easy","storm","1465","210","1132194","Ok","811","storm","597","824.9569601595492","dhoruba","117265","1129561","1132798","1131984","1130988","1129564","858062","1131984","1130389","838301","1130389","117"
"33","0.225168182","2","easy","honor","0","33","1137289","Ok","656","honor","968","626.3685277250738","adhama","117265","1134660","1137915","1137256","1136260","1134662","858062","1137256","1135290","838301","1135289","118"
"67","0.20078806","2","easy","apple","0","275","1140930","Ok","1160","apple","625","681.4101377282217","tofaa","117265","1138343","1141819","1140655","1139659","1138348","858062","1140656","1139032","838301","1139031","119"
"35","0.275992424","2","difficult","doctor","0","306","1146143","Ok","1055","doctor","1629","990.8071211554131","tabibu","117265","1142216","1146895","1145837","1144841","1142218","858062","1145838","1143210","838301","1143210","120"
