"ID","alpha","block","diff","dynamic","english","exposure","first_key_rt","first_key_timestamp","form_response","last_key_rt","rep","response","retrieval_t","rv_trial","swahili","time_block_loop","time_block_sequence","time_correct_answer","time_cue","time_fixation_cross","time_fixation_dot","time_incorrect_answer","time_keyboard","time_press_spacebar","time_study_screen","time_test_screen","trial"
"NA","NA","NA","NA","NA","NA","NA","NA","NA","25","NA","NA","25","NA","NA","NA","NA","NA","NA","NA","NA","NA","NA","NA","NA","NA","NA","NA"
"NA","NA","NA","NA","NA","NA","NA","NA","NA","Male","NA","NA","25","NA","NA","NA","NA","NA","NA","NA","NA","NA","NA","NA","NA","NA","NA","NA"
"50","0.315827272727273","1","difficult","0","society","2965","1659","117865","Ok","5283","0","society","3594","978.5616501920007","chama","110416","110634","121491","116206","115210","110636","NA","116206","111615","111615","NA","1"
"61","0.158680303030303","1","easy","0","lemon","2965","1530","130841","Ok","3002","0","lemon","2878","762.7078677987201","limau","110416","124669","132314","129311","128315","124670","NA","129311","125435","125435","NA","2"
"68","0.222518181818182","1","easy","0","chair","2965","1211","140769","Ok","3723","0","chair","2132","919.627358019929","kiti","110416","135507","143282","139558","138562","135509","NA","139558","136429","136429","NA","3"
"35","0.275992424242424","1","difficult","0","doctor","2965","1331","150849","Ok","2235","0","doctor","1342","701.8130817127778","tabibu","110416","146475","151754","149518","148522","146477","NA","149518","147179","147179","NA","4"
"11","0.183198461538461","1","easy","0","chicken","2965","1259","159121","Ok","3971","0","chicken","1534","401.27810162170215","kuku","110416","154928","161834","157862","156866","154929","NA","157862","155331","155331","NA","5"
"69","0.368722388059701","1","difficult","0","bed","2965","915","168785","Ok","1675","0","bed","1281","578.9674210889955","kitanda","110416","165010","169546","167870","166874","165012","NA","167870","165592","165592","NA","6"
"12","0.386646268656716","1","difficult","0","book","2965","835","176793","Ok","1931","0","book","1684","552.8648912879128","fasihi","110416","172720","177891","175958","174962","172722","NA","175958","173277","173277","NA","7"
"45","0.219891044776119","1","easy","0","door","2965","843","185377","Ok","1483","0","door","1469","986.7269357140012","lango","110416","181078","186018","184534","183538","181080","NA","184534","182068","182068","NA","8"
"19","0.287497014925373","1","difficult","0","wheel","2965","929","193417","Ok","2001","0","wheel","1560","735.4143033933137","duara","110416","189191","194490","192488","191490","189193","NA","192488","189929","189929","NA","9"
"44","0.199686567164179","1","easy","0","soul","2965","1057","202753","Ok","1880","0","soul","2162","866.3222067044519","roho","110416","197666","203578","201696","200698","197668","NA","201696","198535","198535","NA","10"
"12","0.386646268656716","1","difficult","0","book","2965","1007","210681","Ok","1638","1","door","2307","596.5018765806012","fasihi","110416","206766","203578","209674","200698","206768","211314","209674","207365","198535","207365","11"
"68","0.222518181818182","1","easy","0","chair","2965","830","219889","Ok","1653","1","chair","3656","901.5052839817545","kiti","110416","214497","220715","219059","200698","214499","211314","219059","215401","198535","215401","12"
"35","0.275992424242424","1","difficult","0","doctor","2965","1279","226545","Ok","2414","1","doctor","882","483.5282733360041","tabibu","110416","223897","227682","225266","200698","223899","211314","225266","224383","198535","224383","13"
"50","0.315827272727273","1","difficult","0","society","2965","854","234288","Ok","1622","1","soul","2160","406.0119426500453","chama","110416","230864","227682","233434","200698","230866","235058","233434","231273","198535","231273","14"
"19","0.287497014925373","1","difficult","0","wheel","2965","733","241648","Ok","1557","1","soul","1784","874.1908344588325","duara","110416","238251","227682","240915","200698","238253","242474","240915","239128","198535","239128","15"
"69","0.368722388059701","1","difficult","0","bed","2965","1134","248408","Ok","1702","1","bed","939","663.531526704151","kitanda","110416","245667","248978","247274","200698","245669","242474","247274","246333","198535","246333","16"
"44","0.199686567164179","1","easy","0","soul","2965","806","257224","Ok","1630","1","soul","3785","472.90632576060983","roho","110416","252156","258050","256418","200698","252158","242474","256418","252631","198535","252631","17"
"45","0.219891044776119","1","easy","0","door","2965","1110","266768","Ok","2550","1","language","3607","819.8374724143916","lango","110416","261227","258050","265658","200698","261229","268210","265658","262049","198535","262049","18"
"11","0.183198461538461","1","easy","0","chicken","2965","926","273616","Ok","2207","1","chicken","852","431.0283365980538","kuku","110416","271402","274898","272690","200698","271404","268210","272690","271836","198535","271836","19"
"61","0.158680303030303","1","easy","0","lemon","2965","766","281152","Ok","1630","1","lemon","1748","538.18228453259","limau","110416","278095","282018","280386","200698","278097","268210","280386","278636","198535","278636","20"
"61","0.158680303030303","1","easy","0","lemon","2965","742","287472","Ok","1726","2","lemon","1071","463.2057916766788","limau","110416","285192","288458","286730","200698","285193","268210","286730","285657","198535","285657","21"
"69","0.368722388059701","1","difficult","0","bed","2965","766","294224","Ok","1390","2","bed","887","930.7435589940695","kitanda","110416","291637","294850","293458","200698","291638","268210","293458","292569","198535","292569","22"
"19","0.287497014925373","1","difficult","0","wheel","2965","798","302912","Ok","1582","2","wheel","3505","572.4606743629963","duara","110416","298031","303698","302114","200698","298032","268210","302114","298607","198535","298607","23"
"12","0.386646268656716","1","difficult","0","book","2965","670","310096","Ok","1478","2","book","1675","857.9912691959225","fasihi","110416","306889","310906","309426","200698","306891","268210","309426","307749","198535","307749","24"
"44","0.199686567164179","1","easy","0","soul","2965","726","316520","Ok","1494","2","soul","966","727.3443130502569","roho","110416","314096","317290","315794","200698","314098","268210","315794","314826","198535","314826","25"
"11","0.183198461538461","1","easy","0","chicken","2965","942","323056","Ok","1998","2","chicken","896","732.9785387433453","kuku","110416","320479","324114","322114","200698","320481","268210","322114","321216","198535","321216","26"
"50","0.315827272727273","1","difficult","0","society","2965","1694","336312","Ok","2294","2","doo","6796","513.226744557263","chama","110416","327304","324114","334618","200698","327305","336914","334618","327820","198535","327820","27"
"35","0.275992424242424","1","difficult","0","doctor","2965","1766","344152","Ok","3254","2","doctor","1493","774.3861208885382","tabibu","110416","340114","345642","342386","200698","340116","336914","342386","340891","198535","340891","28"
"68","0.222518181818182","1","easy","0","chair","2965","693","355112","Ok","1557","2","chair","4767","830.2881857582107","kiti","110416","348817","355978","354419","200698","348818","336914","354419","349649","198535","349649","29"
"45","0.219891044776119","1","easy","0","door","2965","710","362600","Ok","1278","2","door","1795","918.0577114239906","lango","110416","359172","363170","361890","200698","359174","336914","361890","360093","198535","360093","30"
"19","0.287497014925373","1","difficult","0","wheel","2965","1366","370592","Ok","2550","3","wheel","2290","565.835760915551","duara","110416","366365","371778","369226","200698","366366","336914","369226","366934","198535","366934","31"
"50","0.315827272727273","1","difficult","0","society","2965","614","378504","Ok","2022","3","society","2046","869.8455668570843","chama","110416","374970","379914","377890","200698","374972","336914","377890","375842","198535","375842","32"
"11","0.183198461538461","1","easy","0","chicken","2965","1478","385880","Ok","4342","3","chicken","859","451.56728588549555","kuku","110416","383088","388746","384402","200698","383089","336914","384402","383541","198535","383541","33"
"69","0.368722388059701","1","difficult","0","bed","2965","710","394624","Ok","1342","3","bed","1192","795.3392431933148","kitanda","110416","391922","395258","393914","200698","391924","336914","393914","392721","198535","392720","34"
"12","0.386646268656716","1","difficult","0","book","2965","805","403896","Ok","1597","3","book","3691","962.1637525154425","fasihi","110416","398431","404690","403091","200698","398433","336914","403091","399397","198535","399397","35"
"68","0.222518181818182","1","easy","0","chair","2965","727","411513","Ok","1646","3","chair","2483","426.48809645632855","kiti","110416","407872","412434","410786","200698","407874","336914","410786","408301","198535","408301","36"
"45","0.219891044776119","1","easy","0","door","2965","670","420464","Ok","1238","3","door","3464","719.6461052399968","lango","110416","415605","421034","419794","200698","415607","336914","419794","416328","198535","416328","37"
"35","0.275992424242424","1","difficult","0","doctor","2965","726","426312","Ok","1806","3","doctor","801","569.1135094331543","tabibu","110416","424211","427394","425586","200698","424213","336914","425586","424783","198535","424783","38"
"61","0.158680303030303","1","easy","0","lemon","2965","654","433536","Ok","1366","3","lemon","1627","677.9889530302211","limau","110416","430573","434250","432882","200698","430575","336914","432882","431253","198535","431253","39"
"44","0.199686567164179","1","easy","0","soul","2965","558","439864","Ok","1302","3","soul","1154","707.107309308584","roho","110416","437441","440610","439306","200698","437442","336914","439306","438150","198535","438150","40"
"35","0.275992424242424","1","difficult","0","doctor","2965","630","445888","Ok","1470","4","doctor","870","584.5562873360691","tabibu","110416","443799","446730","445258","200698","443801","336914","445258","444386","198535","444386","41"
"44","0.199686567164179","1","easy","0","soul","2965","534","452008","Ok","1222","4","soul","757","803.4865417872787","roho","110416","449910","452698","451474","200698","449911","336914","451474","450715","198535","450715","42"
"50","0.315827272727273","1","difficult","0","society","2965","606","458296","Ok","2198","4","society","906","903.4898474488091","chama","110416","455875","459890","457690","200698","455877","336914","457690","456782","198535","456782","43"
"45","0.219891044776119","1","easy","0","door","2965","614","465432","Ok","1206","4","door","1089","657.1664475159292","lango","110416","463067","466026","464818","200698","463069","336914","464818","463727","198535","463727","44"
"68","0.222518181818182","1","easy","0","chair","2965","526","472056","Ok","1110","4","chair","1496","815.1376059469987","kiti","110416","469214","472642","471530","200698","469216","336914","471530","470032","198535","470032","45"
"11","0.183198461538461","1","easy","0","chicken","2965","662","478040","Ok","2254","4","chicken","839","687.7847231300599","kuku","110416","475847","479634","477378","200698","475848","336914","477378","476537","198535","476537","46"
"61","0.158680303030303","1","easy","0","lemon","2965","694","485056","Ok","1406","4","lemon","800","743.2955470481777","limau","110416","482814","485770","484362","200698","482816","336914","484362","483560","198535","483560","47"
"69","0.368722388059701","1","difficult","0","bed","2965","686","491288","Ok","1174","4","bed","723","931.2996338664194","kitanda","110416","488943","491778","490602","200698","488945","336914","490602","489877","198535","489877","48"
"12","0.386646268656716","1","difficult","0","book","2965","790","498520","Ok","1542","4","book","1969","803.4836969963153","fasihi","110416","494954","499274","497730","200698","494955","336914","497730","495759","198535","495759","49"
"19","0.287497014925373","1","difficult","0","wheel","2965","566","506816","Ok","1278","4","wheel","3145","634.3055444116409","duara","110416","502466","507530","506250","200698","502468","336914","506250","503103","198535","503103","50"
"68","0.222518181818182","1","easy","0","chair","2965","374","513144","Ok","942","5","chair","1256","810.799279590194","kiti","110416","510700","513714","512770","200698","510701","336914","512770","511512","198535","511512","51"
"12","0.386646268656716","1","difficult","0","book","2965","278","519376","Ok","1030","5","book","1223","959.5557222908745","fasihi","110416","516910","520130","519098","200698","516911","336914","519098","517873","198535","517873","52"
"61","0.158680303030303","1","easy","0","lemon","2965","718","526000","Ok","1438","5","lemon","1272","700.6168605807406","limau","110416","523305","526722","525282","200698","523307","336914","525282","524008","198535","524008","53"
"69","0.368722388059701","1","difficult","0","bed","2965","637","532336","Ok","1133","5","bed","880","896.2040770757757","kitanda","110416","529915","532834","531699","200698","529917","336914","531699","530816","198535","530816","54"
"45","0.219891044776119","1","easy","0","door","2965","1238","540896","Ok","1982","5","chair","3053","595.7551179683677","lango","110416","536006","532834","539658","200698","536007","541642","539658","536603","198535","536603","55"
"44","0.199686567164179","1","easy","0","soul","2965","542","547128","Ok","1262","5","soul","859","912.1293630314119","roho","110416","544810","547850","546586","200698","544812","541642","546586","545725","198535","545725","56"
"11","0.183198461538461","1","easy","0","chicken","2965","926","553832","Ok","1902","5","chicken","920","957.1415223607797","kuku","110416","551022","554810","552906","200698","551024","541642","552906","551984","198535","551984","57"
"35","0.275992424242424","1","difficult","0","doctor","2965","662","560016","Ok","1510","5","doctor","839","507.737053669718","tabibu","110416","558003","560866","559354","200698","558005","541642","559354","558513","198535","558513","58"
"19","0.287497014925373","1","difficult","0","wheel","2965","518","566984","Ok","1254","5","wheel","1453","948.9404101290594","duara","110416","564058","567722","566466","200698","564059","541642","566466","565011","198535","565011","59"
"50","0.315827272727273","1","difficult","0","society","2965","422","573328","Ok","1526","5","society","1265","740.3360003640687","chama","110416","570896","574434","572906","200698","570898","541642","572906","571639","198535","571639","60"
"72","0.223059090909091","2","easy","1","ice","2465","793","589624","Ok","1321","0","ice","5070","745.1333817031773","maji","110416","582013","590154","588831","587834","582014","541642","588831","582762","582762","571639","61"
"37","0.167559090909091","2","easy","1","skirt","2465","658","596968","Ok","1514","0","skirt","1745","732.7989763847363","skati","110416","0","597826","596310","595314","0","541642","596310","593567","593567","571639","62"
"63","0.216794029850746","2","easy","1","storm","2465","498","604488","Ok","1490","0","storm","1793","690.8245864302829","dhoruba","110416","600506","605482","603990","602994","600508","541642","603990","601199","601199","571639","63"
"75","0.170078787878788","2","easy","1","death","2465","450","611656","Ok","1274","0","death","1641","411.93619171910757","ufu","110416","608151","612482","611206","610210","608152","541642","611206","608567","608567","571639","64"
"14","0.3337796875","2","difficult","1","voice","2465","784","618608","Ok","1472","0","voice","1183","485.548191347982","sauti","110416","615153","619298","617824","616826","615155","541642","617824","615641","615641","571639","65"
"22","0.287647692307692","2","difficult","1","fruit","2465","738","626024","Ok","1586","0","fruit","1613","702.7047680126731","tunda","110416","621970","626874","625286","624290","621972","541642","625286","622675","622675","571639","66"
"32","0.344718181818182","2","difficult","1","party","2465","722","633688","Ok","1682","0","party","1457","960.7546156695472","karamu","110416","629546","634650","632966","631970","629548","541642","632966","630511","630511","571639","67"
"67","0.200788059701493","2","easy","1","apple","2465","922","641280","Ok","1746","0","apple","1603","431.1489037300752","tofaa","110416","637324","642106","640358","639362","637325","541642","640358","637757","637757","571639","68"
"36","0.369626865671642","2","difficult","1","pot","2465","714","649320","Ok","1466","0","pot","1847","968.2719145658971","chunga","110416","644788","650074","648606","647610","644790","541642","648606","645761","645761","571639","69"
"62","0.355907575757576","2","difficult","1","rope","2465","906","656488","Ok","1490","0","rope","1249","583.7013875516817","kamba","110416","652749","657074","655582","654586","652751","541642","655582","653335","653335","571639","70"
"75","0.170078787878788","2","easy","1","death","1965","766","663624","Ok","1438","1","death","2638","471.01521409075156","ufu","110416","659743","664298","662858","654586","659745","541642","662858","660218","653335","660218","71"
"37","0.167559090909091","2","easy","1","skirt","1965","646","669656","Ok","1358","1","skirt","1727","809.3098701017148","skati","110416","666467","670370","669010","654586","666469","541642","669010","667281","653335","667281","72"
"63","0.216794029850746","2","easy","1","storm","1965","462","675424","Ok","1342","1","storm","1667","746.2214309458492","dhoruba","110416","672543","676306","674962","654586","672545","541642","674962","673293","653335","673293","73"
"14","0.3337796875","2","difficult","1","voice","1965","670","682816","Ok","1390","1","voice","3093","572.95705087595","sauti","110416","678476","683538","682146","654586","678478","541642","682146","679051","653335","679051","74"
"32","0.344718181818182","2","difficult","1","party","3465","582","691312","Ok","1158","1","song","4191","825.3609051573624","karamu","110416","685709","683538","690730","654586","685711","691890","690730","686537","653335","686537","75"
"62","0.355907575757576","2","difficult","1","rope","3465","606","699656","Ok","1118","1","pit","2989","495.5787392362425","kamba","110416","695561","683538","699050","654586","695563","700170","699050","696059","653335","696059","76"
"22","0.287647692307692","2","difficult","1","fruit","3465","382","709584","Ok","854","1","door","4854","495.33565929681106","tunda","110416","703848","683538","709202","654586","703850","710058","709202","704347","653335","704346","77"
"67","0.200788059701493","2","easy","1","apple","3465","894","718504","Ok","1310","1","fun","2984","883.1251988284293","tofaa","110416","713739","683538","717610","654586","713740","718922","717610","714624","653335","714624","78"
"72","0.223059090909091","2","easy","1","ice","1965","614","725048","Ok","1238","1","ice","907","924.309922507192","maji","110416","722597","725674","724434","654586","722598","718922","724434","723525","653335","723525","79"
"36","0.369626865671642","2","difficult","1","pot","1965","710","731128","Ok","1174","1","pot","1899","653.7618217594746","chunga","110416","727859","731593","730418","654586","727861","718922","730418","728517","653335","728517","80"
"32","0.344718181818182","2","difficult","1","party","4465","1839","741760","Ok","2391","2","pit","5221","931.1883129970875","karamu","110416","733765","731593","739921","654586","733767","742313","739921","734699","653335","734699","81"
"75","0.170078787878788","2","easy","1","death","1465","870","749792","Ok","1750","2","death","998","927.8596411768239","ufu","110416","746992","750674","748922","654586","746993","742313","748922","747922","653335","747922","82"
"36","0.369626865671642","2","difficult","1","pot","1465","702","754760","Ok","1118","2","pot","827","877.4708687152738","chunga","110416","752348","755178","754058","654586","752349","742313","754058","753229","653335","753229","83"
"63","0.216794029850746","2","easy","1","storm","1465","399","758680","Ok","1359","2","storm","796","628.8364934958323","dhoruba","110416","756853","759642","758281","654586","756855","742313","758281","757484","653335","757484","84"
"72","0.223059090909091","2","easy","1","ice","1465","630","763416","Ok","1142","2","ice","746","697.1245362845913","maji","110416","761335","763929","762786","654586","761337","742313","762786","762038","653335","762038","85"
"14","0.3337796875","2","difficult","1","voice","1465","623","767936","Ok","1335","2","voice","1047","655.3145108585695","sauti","110416","765607","768649","767313","654586","765609","742313","767314","766265","653335","766265","86"
"37","0.167559090909091","2","easy","1","skirt","1465","486","772400","Ok","1150","2","skirt","875","691.0607881591347","skati","110416","770343","773065","771914","654586","770345","742313","771914","771037","653335","771037","87"
"22","0.287647692307692","2","difficult","1","fruit","4465","406","782632","Ok","1270","2","party","6507","963.3801456396122","tunda","110416","774749","773065","782226","654586","774751","783497","782226","775717","653335","775717","88"
"67","0.200788059701493","2","easy","1","apple","4465","1087","796056","Ok","2279","2","car","5800","988.7432954363595","tofaa","110416","788177","773065","794969","654586","788179","797249","794970","789168","653335","789168","89"
"62","0.355907575757576","2","difficult","1","rope","4465","702","805424","Ok","1526","2","party","2154","620.094561243696","kamba","110416","801942","773065","804722","654586","801944","806249","804722","802566","653335","802566","90"
"67","0.200788059701493","2","easy","1","apple","3965","439","813240","Ok","1159","3","apple","1119","743.8721680985332","tofaa","110416","810935","813962","812801","654586","810936","806249","812801","811681","653335","811681","91"
"62","0.355907575757576","2","difficult","1","rope","3965","606","820848","Ok","1062","3","rope","1321","778.2390877653821","kamba","110416","818138","821305","820242","654586","818140","806249","820242","818919","653335","818919","92"
"72","0.223059090909091","2","easy","1","ice","965","566","827536","Ok","998","3","ice","775","712.3423524421573","maji","110416","825478","827969","826970","654586","825480","806249","826970","826193","653335","826193","93"
"32","0.344718181818182","2","difficult","1","party","3965","527","832064","Ok","2295","3","party","1478","915.2429431251064","karamu","110416","829139","833833","831537","654586","829141","806249","831537","830058","653335","830058","94"
"14","0.3337796875","2","difficult","1","voice","965","615","840192","Ok","1327","3","voice","1038","527.5000107708718","sauti","110416","838008","840905","839577","654586","838010","806249","839577","838538","653335","838538","95"
"75","0.170078787878788","2","easy","1","death","965","303","843968","Ok","1079","3","death","779","808.2407759527212","ufu","110416","842074","844746","843665","654586","842076","806249","843665","842886","653335","842885","96"
"37","0.167559090909091","2","easy","1","skirt","965","366","848064","Ok","998","3","skirt","783","987.0629962826758","skati","110416","845923","848697","847698","654586","845925","806249","847698","846913","653335","846913","97"
"63","0.216794029850746","2","easy","1","storm","965","166","851696","Ok","1094","3","storm","713","941.3736546172456","dhoruba","110416","849869","852625","851530","654586","849871","806249","851530","850815","653335","850815","98"
"22","0.287647692307692","2","difficult","1","fruit","5465","359","856024","Ok","807","3","rope","1345","518.0302332825527","tunda","110416","853797","852625","855665","654586","853799","856473","855665","854319","653335","854319","99"
"36","0.369626865671642","2","difficult","1","pot","965","359","864216","Ok","831","3","pot","1183","522.1507703409318","chunga","110416","862148","864690","863857","654586","862150","856473","863857","862673","653335","862673","100"
"32","0.344718181818182","2","difficult","1","party","3465","399","868328","Ok","2279","4","party","1399","663.2025220877911","karamu","110416","865863","870210","867929","654586","865865","856473","867929","866529","653335","866529","101"
"75","0.170078787878788","2","easy","1","death","465","158","875368","Ok","958","4","death","719","602.3921897320864","ufu","110416","873883","876169","875210","654586","873884","856473","875210","874489","653335","874489","102"
"37","0.167559090909091","2","easy","1","skirt","465","622","878800","Ok","1270","4","skirt","842","489.12860983846497","skati","110416","876842","879449","878178","654586","876844","856473","878178","877334","653335","877334","103"
"63","0.216794029850746","2","easy","1","storm","465","359","881832","Ok","1111","4","storm","925","416.49341323011026","dhoruba","110416","880128","882585","881473","654586","880130","856473","881474","880547","653335","880547","104"
"22","0.287647692307692","2","difficult","1","fruit","4965","494","885384","Ok","3182","4","fruit","1099","520.8428685542767","tunda","110416","883264","888073","884890","654586","883265","856473","884890","883789","653335","883789","105"
"14","0.3337796875","2","difficult","1","voice","465","319","894984","Ok","2607","4","voice","790","629.0391849853739","sauti","110416","893242","897273","894665","654586","893244","856473","894665","893874","653335","893874","106"
"72","0.223059090909091","2","easy","1","ice","465","535","899560","Ok","1047","4","ice","653","417.79966497902853","maji","110416","897950","900073","899025","654586","897952","856473","899025","898371","653335","898371","107"
"62","0.355907575757576","2","difficult","1","rope","3465","551","903864","Ok","1031","4","rope","1564","994.294973736562","kamba","110416","900749","904345","903313","654586","900751","856473","903313","901748","653335","901748","108"
"36","0.369626865671642","2","difficult","1","pot","465","478","909776","Ok","846","4","pot","771","500.90221357346553","chunga","110416","908021","910145","909298","654586","908023","856473","909298","908525","653335","908525","109"
"67","0.200788059701493","2","easy","1","apple","3465","271","912560","Ok","887","4","apple","1058","404.4327295396611","tofaa","110416","910823","913177","912289","654586","910824","856473","912289","911230","653335","911230","110"
"37","0.167559090909091","2","easy","1","skirt","0","502","918688","Ok","1366","5","skirt","869","466.8613185618517","skati","110416","916847","919553","918186","654586","916848","856473","918186","917315","653335","917315","111"
"36","0.369626865671642","2","difficult","1","pot","0","647","922016","Ok","999","5","pot","1179","415.235766263904","chunga","110416","919771","922369","921369","654586","919773","856473","921369","920189","653335","920189","112"
"72","0.223059090909091","2","easy","1","ice","0","326","924336","Ok","750","5","ice","744","683.3616547161151","maji","110416","922577","924761","924010","654586","922578","856473","924010","923264","653335","923264","113"
"67","0.200788059701493","2","easy","1","apple","2965","271","926608","Ok","1567","5","apple","726","635.5435055863823","tofaa","110416","924972","927905","926337","654586","924974","856473","926337","925610","653335","925610","114"
"75","0.170078787878788","2","easy","1","death","0","150","932839","Ok","759","5","death","732","852.4557430703045","ufu","110416","931101","933449","932689","654586","931102","856473","932689","931956","653335","931956","115"
"22","0.287647692307692","2","difficult","1","fruit","5965","663","939936","Ok","1719","5","book","4715","891.9258449083413","tunda","110416","933663","933449","939273","654586","933665","940993","939273","934557","653335","934557","116"
"14","0.3337796875","2","difficult","1","voice","0","630","949184","Ok","1358","5","voice","717","662.8266330774616","sauti","110416","947169","949913","948554","654586","947171","940993","948554","947835","653335","947835","117"
"32","0.344718181818182","2","difficult","1","party","2965","543","952696","Ok","1343","5","party","1559","462.5277877341309","karamu","110416","950128","953497","952153","654586","950130","940993","952153","950593","653335","950593","118"
"62","0.355907575757576","2","difficult","1","rope","4465","815","961960","Ok","2231","5","book","3952","514.8613904994803","kamba","110416","956675","953497","961145","654586","956677","963377","961145","957192","653335","957192","119"
"63","0.216794029850746","2","easy","1","storm","1465","231","969592","Ok","1047","5","stomr","806","503.481906362318","dhoruba","110416","968047","953497","969361","654586","968049","970409","969361","968553","653335","968553","120"
